File: src/reference/xrd_and_assay.csv
Chlorite group,Quartz,Pyroxene,Plagioclase,K-Feldspar,Calcite group - Siderite,Calcite group,Dolomite group,Spinel group,Hematite group,Stilpnomelane,Mica group,Pyrite,Rutile group,Goethite,Smectite group,Sepiolite,Kaolinite-serpentine group,Birnessite,Fe3O4,Fe,SiO2,Al2O3,TiO2,Mn,CaO,P,S,MgO,K2O,Na2O,Zn,As,Cl,Cu,Pb,Ba,V,Cr,Ni,Co,Sn,Zr,Sr,LOI371,LOI650,LOI1000,LOI
3.12515,41.9081,,0,,12.3522,,0,26.6186,12.9189,,0,,0.414433,2.66266,0,0,0,,25,35.2,39.7,1.399,0.061,0.561,0.435,0.123,0.057,1.8,0.35,0.027,0.004,0.001,-0.001,0.002,0.002,0.004,0.003,0.01,0.008,0.001,0.001,0.001,0.007,0.49,4.33,-0.08,4.74
4.39663,40.2584,,0,,13.3657,,1.55286,38.7617,1.11427,,0,,0.375702,0,0,0.174801,0,,37.7,35.04,39.61,1.142,0.05,0.602,0.789,0.101,0.034,1.98,0.256,0.035,0.004,0.001,0.001,0.002,0.002,0.004,0.003,0.009,0.006,-0.001,-0.001,0.001,0.008,0.08,5.11,-0.45,4.74
3.01775,34.7147,,2.38391,,29.1865,,1.16298,27.8157,0.961951,,0,,0.756489,0,0,0,0,,26.9,34.44,34.82,1.278,0.052,0.6,0.667,0.099,0.055,2.25,0.353,0.195,0.003,0.001,-0.001,0.002,-0.001,0.003,-0.001,0.009,0.006,0.001,-0.001,-0.001,0.008,2.22,8.01,-0.23,10.00
6.60488,64.423,,0,,19.0257,,0,0,5.18227,,0,,1.02494,3.73912,0,0,0,,1.2,15.78,60.81,2.152,0.088,0.836,0.675,0.193,0.088,2.72,0.548,0.022,0.015,-0.001,0.002,0.009,0.004,0.007,0.004,0.003,0.005,0.001,0.002,0.001,0.013,1.03,7.14,0.33,8.50
7.02861,65.9874,,0,,21.4058,,3.16708,0,1.0975,,0,,0.836763,0,0,0.476877,0,,1,12.06,64.15,1.854,0.077,0.96,1.265,0.166,0.054,3.17,0.422,0.041,0.008,-0.001,-0.001,0.01,0.006,0.012,0.002,0.002,0.005,0.001,0.002,0.001,0.016,0.38,9.36,0.21,9.95
3.66272,49.3729,,3.20403,,40.0895,,1.53055,0,1.23959,,0,,0.900802,0,0,0,0,,0.9,19.52,48.64,1.809,0.069,0.821,0.924,0.137,0.078,3.1,0.498,0.255,0.014,0.001,0.001,0.007,0.003,0.005,-0.001,0.002,0.005,0.001,-0.001,0.001,0.013,6.19,8.62,0.2,15.01
3.67906,39.3567,,0.550817,,22.3611,,0.808101,27.5009,5.38831,,0.355024,,0,0,0,0,0,,27.81,34.61,37.2,1.271,0.06,0.456,0.799,0.109,0.103,1.86,0.142,0.045,0.003,0.001,0.007,-0.001,-0.001,-0.001,-0.001,0.013,0.003,-0.001,-0.001,0.003,0.009,1.06,6.74,-0.02,7.78
6.092,40.552,,0,,20.5236,,1.67909,25.5415,4.31307,,1.29875,,0,0,0,0,0,,26.23,32.32,40.37,1.583,0.066,0.472,0.789,0.102,0.114,2.07,0.15,0.034,0.002,0.002,0.003,0.001,-0.001,-0.001,0.001,0.011,0.001,-0.001,-0.001,0.003,0.009,0.48,6.93,0.04,7.45
2.92653,41.8133,,0,,18.9453,,1.91187,29.9684,4.0243,,0.410345,,0,0,0,0,0,,29.59,33.68,39.97,0.999,0.048,0.447,0.927,0.122,0.064,1.63,0.172,0.016,0.002,0.001,0.003,-0.001,0.001,-0.001,-0.001,0.007,-0.001,-0.001,-0.001,0.003,0.01,0.5,6.17,0.04,6.71
4.75148,53.8768,,0,,30.2588,,2.42581,0,7.20773,,1.47944,,0,0,0,0,0,,0.86,20.18,51.59,1.75,0.071,0.612,1.084,0.151,0.147,2.51,0.198,0.053,0.004,0.001,0.001,0.008,-0.001,-0.001,-0.001,0.004,-0.001,-0.001,-0.001,0.003,0.005,1.9,9.68,0.54,12.12
7.34196,57.6656,,0,,25.8479,,2.10452,0,5.59401,,1.44602,,0,0,0,0,0,,0.86,18.09,55.52,2.142,0.087,0.619,1.037,0.137,0.154,2.73,0.203,0.034,0.007,0.001,-0.001,0.008,0.001,0.004,0.002,0.011,0.003,0.001,-0.001,0.005,0.01,0.28,9.96,0.78,11.02
3.71845,59.9716,,0,,26.1543,,3.42098,0,5.6283,,1.10642,,0,0,0,0,0,,0.98,17.02,57.99,1.476,0.061,0.62,1.302,0.173,0.094,2.29,0.25,0.018,0.004,0.001,0.001,0.008,-0.001,0.003,-0.001,0.004,-0.001,-0.001,-0.001,0.004,0.011,0.21,9.83,0.88,10.92
4.17516,41.883,,0,,11.0651,,0,31.2242,9.18487,,0,,0.398142,2.06953,0,0,0,,31.03,35.75,39.58,1.348,0.068,0.63,0.562,0.139,0.096,1.5,0.244,0.012,0.003,0.001,-0.001,-0.001,-0.001,0.004,0.008,0.009,-0.001,0.001,-0.001,0.003,0.005,0.25,3.65,-0.08,3.82
6.64983,39.3968,,0,,21.034,,0,30.0369,1.16096,,0,,0,0,0,1.72151,0,,32.58,35.38,37.23,1.713,0.084,0.568,0.541,0.146,0.132,1.98,0.05,0.016,0.004,0.001,0.001,0.001,0.002,-0.001,0.002,0.015,0.007,0.002,-0.001,0.004,0.01,0.14,6.45,-0.12,6.47
2.55144,39.1436,,0,,12.0861,,4.33305,36.7294,4.45982,,0.0915984,,0.604971,0,0,0,0,,34.41,35.17,38.85,1.033,0.048,0.602,1.275,0.113,0.047,1.76,0.309,0.014,0.003,0.001,0.019,0.001,-0.001,-0.001,-0.001,0.009,0.001,0.001,-0.001,0.003,0.008,-0.05,4.3,0.62,4.87
7.21171,65.4908,,0,,16.8596,,0,0,6.74721,,0,,0.616541,3.07418,0,0,0,,0.89,15.56,62.27,2.089,0.083,0.953,0.653,0.202,0.138,2.26,0.387,0.018,0.004,0.001,-0.001,0.007,-0.001,0.005,-0.001,0.012,0.008,-0.001,-0.001,0.003,0.006,0.58,6.45,0.64,7.67
11.4997,54.7799,,0,,28.5986,,0,0.876988,0.67891,,0,,0,0,0,3.56583,0,,1.02,16.62,55.92,2.579,0.106,0.836,0.804,0.217,0.199,2.97,0.071,0.031,0.007,0.001,-0.001,0.008,-0.001,-0.001,-0.001,0.008,0.002,0.001,-0.001,0.004,0.009,0.4,10.47,0.6,11.47
3.74473,64.0956,,0,,18.2021,,6.36217,0.796214,5.98038,,0.333175,,0.485733,0,0,0,0,,1.15,13.98,61.86,1.613,0.062,0.906,1.912,0.167,0.075,2.67,0.477,0.023,0.003,0.001,-0.001,0.008,-0.001,0.005,-0.001,0.004,-0.001,-0.001,-0.001,0.003,0.008,0.22,7.47,1.81,9.50
1.49128,8.18897,,0,,3.97813,,0,84.2475,0,,0,,0,0,0,2.09412,0,,83.8,63.98,8.813,0.321,0.036,0.098,0.107,0.018,0.012,0.543,0.027,0.017,0.003,-0.001,0.002,0.003,0.001,-0.001,0.004,0.02,0.005,0.001,-0.001,0.002,0.004,-0.19,0,-1.38,-1.57
1.02795,8.78069,,0,,1.98094,,0,85.1504,0,,0,,0,0,0,3.06005,0,,83.8,63.8,9.739,0.291,0.028,0.096,0.097,0.021,0.009,0.484,0.059,0.027,0.003,-0.001,0.003,0.004,0.001,-0.001,0.003,0.019,0.005,0.001,-0.001,0.001,0.004,-0.27,-0.47,-1.31,-2.05
0,7.39704,,0,,1.00103,,0,89.6434,0,,0,,0,0,0,1.95857,0,,87.5,65.02,8.452,0.23,0.021,0.082,0.116,0.023,0.003,0.331,0.151,0.023,0.003,-0.001,0.003,0.003,-0.001,0.002,0.003,0.016,0.008,0.002,-0.001,0.001,0.003,-0.41,-0.85,-1.35,-2.61
0.549494,6.15928,,0,,1.07355,,0,79.4414,12.1872,,0,,0.291811,0,0,0.297257,0,,74.85,66.9,5.533,0.416,0.036,0.041,0.063,0.012,0.005,0.189,0.229,0.03,0.005,-0.001,0.005,-0.001,0.001,0.005,0.008,0.098,0.016,0.002,-0.001,0.001,0.002,-0.3,-0.76,-1.18,-2.24
0,6.23435,,0,,0,,0,92.7849,0.758092,,0,,0,0,0,0.222674,0,,83.27,66.18,6.892,0.44,0.034,0.053,0.097,0.014,0.006,0.268,0.249,0.037,0.004,-0.001,0.003,-0.001,0.001,0.007,0.007,0.081,0.016,0.002,-0.001,0.001,0.003,-0.42,-0.73,-1.35,-2.50
0.699763,5.86514,,0,,1.45665,,0,91.0416,0.499977,,0,,0,0,0,0.436853,0,,85,66.92,6.19,0.297,0.027,0.053,0.082,0.011,0.005,0.29,0.115,0.018,0.003,-0.001,0.007,-0.001,0.002,0.005,0.005,0.05,0.009,0.002,0.001,-0.001,0.002,-0.43,-0.79,-1.29,-2.51
0,6.9968,,0,,1.25053,,0,89.8571,0.603816,,0,,0.352358,0,0,0.939404,0,,82.12,64.72,8.54,0.593,0.04,0.057,0.095,0.014,0.01,0.31,0.359,0.056,0.004,-0.001,0.003,-0.001,0.002,0.01,0.008,0.069,0.015,0.001,0.001,0.001,0.003,-0.42,-0.76,-1.27,-2.45
0.978826,6.77392,,0,,0.900845,,0,90.2979,0,,0,,0.413092,0,0,0.635385,0,,84.2,65.47,7.62,0.59,0.042,0.055,0.099,0.016,0.018,0.31,0.325,0.021,0.005,-0.001,0.009,-0.001,0.001,0.011,0.009,0.078,0.012,0.002,0.002,0.002,0.003,-0.4,-0.84,-1.26,-2.50
1.35826,5.50599,,0,,1.27456,,0,90.2708,0,,0,,0.249071,0,0,1.34129,0,,83.46,65.42,7.192,0.693,0.063,0.046,0.095,0.014,0.014,0.378,0.296,0.015,0.008,-0.001,-0.001,-0.001,0.002,0.009,0.015,0.182,0.013,0.001,-0.001,0.002,0.003,-0.25,-0.78,-1.32,-2.35
1.89132,4.45408,,0,,1.44284,,0,90.5166,0,,0,,0,0,0,1.69519,0,,84.99,66.06,6.13,0.653,0.069,0.042,0.074,0.009,0.015,0.384,0.22,0.02,0.008,-0.001,0.002,-0.001,0.002,0.013,0.02,0.211,0.014,0.001,-0.001,0.001,0.003,-0.26,-0.75,-1.35,-2.36
2.49825,7.48114,,0,,1.84704,,0,86.1624,0,,0,,0.306538,0,0,1.70463,0,,85.6,65.09,7.662,0.706,0.058,0.046,0.104,0.012,0.017,0.382,0.28,0.016,0.007,-0.001,-0.001,-0.001,0.002,0.015,0.014,0.138,0.012,0.002,0.001,0.002,0.003,-0.24,-0.72,-1.36,-2.32
0.836238,8.50116,,0,,1.37961,,0,88.0106,0.912405,,0,,0,0,0,0.360005,0,,81.6,64.78,8.33,0.384,0.029,0.074,0.099,0.016,0.006,0.31,0.191,0.026,0.004,-0.001,0.001,0.004,0.005,0.008,0.004,0.037,0.011,0.001,-0.001,-0.001,0.007,-0.38,-0.62,-1.27,-2.27
2.15063,7.04773,,0,,1.60288,,0,88.0962,0,,0,,0,0,0,1.10258,0,,83.3,64.02,8.69,0.645,0.052,0.067,0.105,0.016,0.038,0.421,0.26,0.027,0.009,-0.001,0.001,0.004,0.009,0.015,0.011,0.092,0.014,0.001,-0.001,-0.001,0.009,-0.29,-0.68,-1.18,-2.15
1.74961,6.67748,,0,,0.922599,,0,89.4764,0,,0,,0,0,0,1.17386,0,,81.4,64.44,7.939,0.812,0.07,0.043,0.103,0.014,0.022,0.445,0.27,0.027,0.01,-0.001,0.001,0.004,0.004,0.011,0.014,0.146,0.013,0.003,-0.001,-0.001,0.004,-0.25,-0.75,-1.23,-2.23
1.86735,5.92215,,0,,2.03166,,0,88.896,0,,0,,0,0,0,1.2828,0,,81.8,64.92,6.919,0.738,0.073,0.057,0.079,0.01,0.021,0.479,0.209,0.022,0.018,-0.001,0.001,0.004,0.004,0.012,0.017,0.255,0.014,0.001,-0.001,0.001,0.005,-0.2,-0.55,-1.22,-1.97
1.65273,6.29672,,0,,1.24141,,0,89.8748,0,,0,,0,0,0,0.934353,0,,83.7,65.24,7.451,0.585,0.046,0.051,0.07,0.011,0.021,0.384,0.253,0.013,0.005,-0.001,0.001,0.002,0.001,0.011,0.008,0.064,0.011,0.001,-0.001,-0.001,0.006,-0.34,-0.86,-1.17,-2.37
0.911928,5.5435,,0,,0,,0,92.9019,0,,0,,0,0,0,0.642628,0,,85.4,65.22,7.332,0.66,0.048,0.049,0.091,0.011,0.022,0.342,0.37,0.017,0.006,-0.001,0.001,0.003,0.004,0.012,0.008,0.064,0.013,0.001,-0.001,0.001,0.005,-0.37,-0.93,-1.11,-2.41
0.944763,3.85328,,0,,0.668631,,0,88.2131,5.59095,,0,,0,0,0,0.729324,0,,84.4,67.86,4.607,0.304,0.024,0.029,0.109,0.009,0.008,0.18,0.145,-0.001,0.002,-0.001,0.004,0.001,-0.001,0.002,0.007,0.049,0.008,-0.001,0.003,-0.001,-0.001,-0.4,-0.97,-1.21,-2.58
1.06968,4.81333,,0,,1.06002,,0,91.6434,0,,0,,0,0,0,1.41357,0,,88.4,67.39,5.197,0.306,0.025,0.033,0.114,0.014,0.009,0.226,0.125,0.02,0.003,-0.001,0.002,0.002,0.004,0.005,0.006,0.058,0.013,-0.001,-0.001,-0.001,-0.001,-0.38,-0.91,-1.3,-2.59
0.820495,3.59423,,0,,0.776461,,0,93.5855,0,,0,,0,0,0,1.22329,0,,88.6,67.57,4.685,0.364,0.036,0.034,0.116,0.016,0.024,0.296,0.076,0.022,0.003,-0.001,0.002,0.003,0.004,-0.001,0.008,0.094,0.008,0.001,0.002,0.001,-0.001,-0.33,-1.04,-1.17,-2.54
0.816056,7.01181,,0,,1.99673,,0,67.3064,22.869,,0,,0,0,0,0,0,,63.1,65.29,6.986,0.197,0.024,0.089,0.052,0.019,0.008,0.27,0.046,0.009,0.004,-0.001,-0.001,0.002,0.001,-0.001,0.006,0.022,0.009,0.001,-0.001,-0.001,0.004,-0.13,-0.32,-0.75,-1.20
0.990659,7.54057,,0,,2.66552,,0,88.8033,0,,0,,0,0,0,0,0,,86.4,65.37,7.773,0.211,0.021,0.091,0.093,0.02,0.005,0.29,0.055,0.015,0.003,-0.001,-0.001,0.001,-0.001,-0.001,0.003,0.019,0.007,-0.001,-0.001,-0.001,0.002,-0.3,-0.73,-1.22,-2.25
0,5.57246,,0,,4.0692,,0,90.3583,0,,0,,0,0,0,0,0,,86.8,66.67,5.505,0.175,0.02,0.089,0.088,0.018,0.006,0.278,0.063,0.037,0.004,-0.001,-0.001,0.001,-0.001,0.003,0.004,0.026,0.009,0.002,0.001,-0.001,0.003,-0.29,-0.39,-1.07,-1.75
0,6.36051,,0,,1.68625,,0,89.0162,2.937,,0,,0,0,0,0,0,,86.58,66.74,6.298,0.138,0.019,0.066,0.074,0.015,0.006,0.207,0.015,0.008,0.003,0.001,0.004,0.001,-0.001,0.004,0.002,0.022,0.004,0.001,0.001,0.001,0.004,-0.35,-0.64,-1.19,-2.18
0,6.0523,,0,,1.62225,,0,91.0793,1.24615,,0,,0,0,0,0,0,,88.29,66.85,5.974,0.122,0.019,0.062,0.071,0.014,0.006,0.204,0.014,0.016,0.004,-0.001,0.007,0.001,0.001,0.004,0.002,0.022,0.006,0.001,-0.001,0.001,0.004,-0.37,-0.72,-1.2,-2.29
0,5.39447,,0,,1.28518,,0,92.5788,0.741534,,0,,0,0,0,0,0,,88.47,67.23,5.707,0.1,0.019,0.062,0.078,0.015,0.006,0.182,0.016,0.012,0.003,-0.001,0.007,0.001,0.002,0.006,0.002,0.026,0.011,0.002,-0.001,0.001,0.005,-0.42,-0.73,-1.23,-2.38
0,7.14671,,0,,1.5073,,0,87.2288,4.11714,,0,,0,0,0,0,0,,81.82,66.27,6.944,0.094,0.018,0.065,0.07,0.018,0.004,0.16,0.029,0.003,0.003,-0.001,0.002,0.002,0.003,0.004,0.005,0.02,0.011,-0.001,0.002,-0.001,-0.001,-0.44,-0.79,-1.06,-2.29
0,6.55964,,0,,1.22809,,0,89.69,0.903988,,0,,0,0,0,0,1.61825,,86.6,66.58,6.586,0.146,0.019,0.077,0.062,0.017,0.006,0.174,0.007,-0.001,0.002,-0.001,0.002,0.001,0.003,0.003,0.004,0.021,0.007,-0.001,-0.001,-0.001,-0.001,-0.43,-0.98,-1.01,-2.42
0,7.13096,,0,,1.09993,,0,89.8912,1.87794,,0,,0,0,0,0,0,,87.2,66.35,6.88,0.122,0.013,0.089,0.066,0.017,0.004,0.164,0.028,0.008,0.003,-0.001,0.001,0.003,0.004,0.004,0.003,0.019,0.008,-0.001,0.001,-0.001,-0.001,-0.46,-0.91,-1.02,-2.39
0,4.01088,,0,,0.1923,,0,93.425,2.37184,,0,,0,0,0,0,0,,90.5,68.56,4.314,0.073,0.011,0.06,0.096,0.02,0.001,0.13,0.018,0.007,0.003,-0.001,0.004,0.003,0.006,0.004,0.003,0.011,0.006,0.001,0.001,0.001,0.001,-0.6,-1.29,-0.98,-2.87
0,5.63163,,0,,0.741725,,0,79.0862,13.4299,,0,,0,0,0,0,1.11053,,77.48,66.77,5.671,0.195,0.024,0.076,0.083,0.027,0.012,0.204,0.021,0.008,0.003,0.001,0.009,0.002,-0.001,0.004,0.003,0.025,0.004,0.002,-0.001,0.001,0.002,-0.25,-0.86,-0.92,-2.03
0,6.06967,,0,,1.91499,,0,88.6027,1.1855,,0,,0,0,0,0,2.22711,,88.29,66.14,6.383,0.205,0.028,0.086,0.095,0.025,0.013,0.26,0.004,0.009,0.004,0.001,0.01,0.002,-0.001,0.002,0.004,0.031,0.005,0.001,-0.001,0.001,0.005,-0.28,-0.52,-1.33,-2.13
0,3.73659,,0,,0.425692,,0,93.4105,2.42719,,0,,0,0,0,0,0,,89.42,68.79,3.817,0.105,0.019,0.054,0.089,0.022,0.006,0.136,0.036,0.009,0.003,-0.001,0.008,-0.001,-0.001,0.002,0.002,0.022,0.009,0.001,-0.001,0.001,0.001,-0.4,-1.09,-1.31,-2.80
3.31544,49.5505,,0,1.90327,22.9728,0,1.9995,0,1.60078,18.6577,0,,,0,,,,,1.1,16.39,57.32,1.937,0.08,0.875,1.087,0.157,0.06,3.47,0.489,0.117,0.005,0.001,0.002,0.005,-0.001,0.013,-0.001,0.001,0.006,-0.001,-0.001,0.003,0.01,0.84,9.02,0.42,10.28
1.1256,52.9883,,0,9.79326,12.3492,0,9.80612,0,1.36436,12.5732,0,,,0,,,,,1.1,10.92,61.1,2.842,0.116,0.771,3.514,0.23,0.146,3.32,1.779,0.096,0.008,0.001,0.002,0.005,-0.001,0.025,-0.001,0.002,0.005,0.001,-0.001,0.003,0.012,0.48,5.87,2.98,9.33
3.67066,41.5256,,0,0,23.3897,0,4.37334,0,0.646401,26.3943,0,,,0,,,,,1,20.09,51.76,2.39,0.103,0.51,1.494,0.123,0.129,2.97,0.577,0.14,0.005,0.001,0.003,0.003,-0.001,0.012,-0.001,0.003,0.006,0.001,-0.001,0.004,0.01,1.47,8.09,0.86,10.42
4.07707,33.4523,,0,0,22.829,0,5.41586,0,1.07163,33.1541,0,,,0,,,,,0.9,21.93,48.12,3.123,0.134,0.439,1.736,0.14,0.25,3.01,0.766,0.171,0.007,0.002,0.003,0.005,-0.001,0.013,0.002,0.008,0.01,0.001,-0.001,0.005,0.012,1.14,7.88,1.07,10.09
3.68342,47.7746,,2.10036,1.51217,23.224,0,1.79054,0,1.61774,18.2972,0,,,0,,,,,0.9,16.62,56.53,1.977,0.087,0.891,1.061,0.157,0.063,3.53,0.494,0.108,0.007,0.001,0.003,0.006,-0.001,0.009,-0.001,-0.001,0.004,0.001,-0.001,0.004,0.01,0.86,9.11,0.43,10.40
1.07328,53.8974,,0,9.1509,12.7081,0,9.1672,0,1.80926,12.1938,0,,,0,,,,,1.1,10.88,61.44,2.818,0.12,0.79,3.4,0.238,0.115,3.3,1.779,0.098,0.006,0.001,0.002,0.005,-0.001,0.027,-0.001,0.002,0.004,0.001,-0.001,0.003,0.012,0.54,5.88,2.86,9.28
3.5365,42.1915,,0,0,22.867,0,4.29533,0,0.663561,26.4461,0,,,0,,,,,1,19.91,52.14,2.381,0.108,0.51,1.494,0.12,0.143,2.94,0.572,0.136,0.005,0.001,0.002,0.004,-0.001,0.011,-0.001,0.002,0.006,0.001,-0.001,0.004,0.01,1.58,7.86,0.87,10.31
4.35956,34.8753,,0,0,23.906,0,5.17406,0,0,31.6851,0,,,0,,,,,0.9,22.42,46.98,3.094,0.136,0.452,1.739,0.137,0.257,3.05,0.743,0.177,0.006,0.002,0.004,0.004,-0.001,0.013,0.001,0.008,0.01,0.001,-0.001,0.004,0.012,1.39,7.98,1.04,10.41
7.23683,50.2674,,0,0,25.7557,0,2.88073,0,1.02726,12.8321,0,,,0,,,,,1.1,17.11,53.58,2.845,0.125,0.681,1.118,0.131,0.145,4.56,0.224,0.106,0.004,0.001,0.003,0.007,0.001,0.011,-0.001,0.004,0.005,0.001,0.002,0.004,0.013,1.25,9.79,0.54,11.58
6.49298,52.5974,,0,2.42364,18.9946,0,4.5279,0,1.54969,13.4139,0,,,0,,,,,0.9,13.65,59.95,2.155,0.085,0.883,1.616,0.156,0.074,4.29,0.402,0.106,0.004,-0.001,0.004,0.006,0.003,0.018,-0.001,0.001,0.003,-0.001,-0.001,0.004,0.012,0.83,8.29,1.16,10.28
0.545174,61.3394,,0,6.10876,12.7294,0,7.87853,0,2.82999,8.56879,0,,,0,,,,,1.8,10.13,64.93,1.841,0.077,0.96,2.637,0.133,0.057,3.67,1.141,0.072,0.014,-0.001,0.004,0.007,0.005,0.028,-0.001,0.001,0.002,-0.001,-0.001,0.004,0.015,0.88,6.03,2.56,9.47
6.26053,47.018,,3.13883,10.6309,9.56765,0,2.66168,0,11.0723,3.3401,0,,,6.31002,,,,,1.09,19.52,54.46,4.527,0.207,0.523,1.142,0.151,0.132,2.32,1.884,0.293,0.007,0.001,0.004,0.007,0.005,0.044,0.003,0.032,0.013,-0.001,-0.001,0.009,0.013,1.27,4.3,0.52,6.09
5.12062,48.4191,,4.28832,9.84955,13.7347,0,7.20891,0,5.73921,5.63963,0,,,0,,,,,0.99,13.75,58.75,3.844,0.168,0.595,2.183,0.166,0.101,3.32,1.822,0.343,0.005,0.001,0.001,0.007,0.004,0.04,0.001,0.01,0.008,0.001,-0.001,0.007,0.013,0.5,6.61,1.59,8.70
6.67212,51.7526,,2.82708,6.31492,16.1367,0,7.48086,0,3.47627,5.33941,0,,,0,,,,,0.9,14.13,58.38,3.445,0.146,0.618,2.058,0.11,0.179,3.66,1.256,0.176,0.005,0.001,0.011,0.006,0.004,0.027,0.001,0.007,0.008,-0.001,-0.001,0.005,0.012,0.46,7.46,1.52,9.44
4.28961,45.9188,,5.17947,11.6345,12.6748,0,6.61841,0,6.56727,7.11716,0,,,0,,,,,0.88,13.87,59.09,4.274,0.192,0.599,1.844,0.113,0.135,3.4,2.167,0.446,0.005,0.001,-0.001,0.007,0.005,0.053,0.002,0.009,0.009,0.002,-0.001,0.007,0.013,0.41,6.15,1.31,7.87
7.74495,47.9809,,0,13.6075,13.4626,0,6.44184,0,2.9196,7.84266,0,,,0,,,,,0.9,12.59,59.29,4.934,0.213,0.565,1.828,0.117,0.506,3.39,2.514,0.164,0.008,0.001,0.001,0.007,0.004,0.056,0.001,0.011,0.011,0.001,-0.001,0.008,0.012,0.37,5.97,1.33,7.67
11.0316,38.3587,,0,20.6293,12.804,0.733654,4.1543,0.932062,0.662866,10.6935,0,,,0,,,,,0.78,14.09,55.76,6.968,0.33,0.368,1.31,0.096,0.29,3.53,3.145,0.134,0.008,0.001,0.004,0.008,0.003,0.082,0.006,0.039,0.021,0.002,-0.001,0.009,0.01,0.54,5.7,0.97,7.21
9.96842,41.035,,0,13.236,16.3732,1.15981,3.70946,1.01191,0.609341,12.8969,0,,,0,,,,,0.99,16.08,53.95,6.128,0.293,0.391,1.226,0.098,0.434,3.59,2.338,0.123,0.008,0.001,0.002,0.008,0.005,0.107,0.004,0.033,0.021,0.002,-0.001,0.01,0.012,0.6,6.52,0.99,8.11
8.90022,39.5616,,0,19.4898,12.8013,0.966783,4.89056,1.19826,0.298867,11.8926,0,,,0,,,,,0.8,13.95,55.76,6.917,0.317,0.367,1.448,0.124,0.332,3.37,3.183,0.12,0.008,0.001,-0.001,0.008,0.003,0.112,0.006,0.039,0.019,0.002,-0.001,0.009,0.011,0.54,5.61,1.01,7.16
6.29737,52.8498,,3.89557,5.02561,14.3864,0.901135,6.71748,1.11723,4.08447,4.72497,0,,,0,,,,,1,13.28,61.17,3.177,0.132,0.679,1.882,0.114,0.085,3.23,1.253,0.162,0.007,0.001,0.004,0.009,-0.001,0.03,0.001,0.004,0.005,-0.001,-0.001,0.006,0.008,0.75,6.46,1.44,8.65
9.62587,44.5479,,0,13.7063,16.0935,0.880377,3.45891,1.14231,0.985919,9.55897,0,,,0,,,,,0.9,14.32,56.61,5.713,0.251,0.531,1.359,0.103,0.482,3.59,2.366,0.128,0.009,0.001,0.005,0.009,-0.001,0.051,0.003,0.014,0.014,0.001,-0.001,0.008,0.008,0.5,6.4,1.11,8.01
10.5948,36.8533,,0,20.665,12.3521,1.23471,3.998,0.829386,0.765357,12.7074,0,,,0,,,,,0.7,14.4,55.27,7.55,0.336,0.316,1.304,0.109,0.368,3.37,3.386,0.153,0.012,-0.001,0.005,0.01,0.005,0.075,0.007,0.031,0.021,0.002,0.003,0.007,0.014,0.57,5.29,0.97,6.83
11.9448,38.4127,,0,16.1497,14.3844,0.895027,3.5008,0.982585,0.563472,13.1665,0,,,0,,,,,0.7,15.56,53.88,7.064,0.335,0.342,1.152,0.075,0.413,3.66,2.755,0.158,0.012,0.001,0.005,0.009,0.003,0.065,0.008,0.035,0.023,0.003,-0.001,0.008,0.012,0.65,5.88,1.04,7.57
7.42513,49.4805,,4.05801,6.20369,14.3157,0.718982,6.45916,1.22942,2.19343,7.91595,0,,,0,,,,,1,13.55,59.22,4.377,0.193,0.52,1.73,0.09,0.401,3.89,1.487,0.187,0.008,-0.001,0.004,0.008,0.001,0.038,0.002,0.008,0.011,0.001,0.002,0.006,0.009,0.41,6.46,1.39,8.26
7.86663,48.012,,3.8016,6.96028,16.4882,0.79522,7.37463,1.17647,1.48948,6.03546,0,,,0,,,,,0.9,13.21,58.68,4.206,0.179,0.548,2,0.128,0.24,3.67,1.747,0.201,0.008,0.001,0.005,0.009,0.002,0.035,0.002,0.008,0.011,0.002,-0.001,0.006,0.012,0.6,7.02,1.48,9.10
7.42206,51.3024,,0,7.10479,15.4339,0.850236,8.04796,0.703306,1.70052,7.43483,0,,,0,,,,,1,14.03,59.95,3.205,0.126,0.371,2.507,0.149,0.222,2.79,1.129,0.108,0.008,0.002,0.003,0.012,0.002,0.018,0.003,0.007,0.009,0.001,-0.001,0.005,0.013,0.42,6.82,1.79,9.03
7.59993,48.3282,,0,4.49229,18.5084,1.09542,6.37924,0.321414,1.52157,11.7535,0,,,0,,,,,0.9,16.06,57.33,3.26,0.126,0.398,1.928,0.139,0.385,3,1.007,0.101,0.007,0.002,0.004,0.009,-0.001,0.012,0.002,0.012,0.011,-0.001,-0.001,0.003,0.008,0.46,7.28,1.34,9.08
9.43854,42.1223,,0,6.73555,15.4727,1.37316,5.80141,0,0.674165,18.3821,0,,,0,,,,,0.7,17.28,54.44,4.931,0.196,0.321,1.703,0.131,0.773,3.26,1.368,0.141,0.006,0.002,0.002,0.006,0.002,0.01,0.004,0.033,0.02,0.002,-0.001,0.006,0.01,0.6,5.88,1.46,7.94
1.105048,54.77528,,0,0.922362,33.09498,0,0,0,6.901772,0,3.200554,,,0,,,,,1.02,18.9,55.55,1.436,0.064,0.813,0.68,0.163,0.065,2.12,0.45,0.034,0.01,-0.001,0.003,0.011,-0.001,0.008,0.002,0.003,0.004,-0.001,-0.001,0.002,0.008,2.21,8.49,0.31,11.01
8.10958,64.3119,,0,0.859501,23.208,0,0,0,3.00784,0,0.5032,,,0,,,,,1,15.1,61.63,2.18,0.094,0.991,0.511,0.133,0.137,2.47,0.164,0.024,0.005,-0.001,0.002,0.009,0.004,0.009,0.002,0.003,0.007,0.001,-0.001,0.003,0.011,1.31,7.73,0.41,9.45
2.83928,61.8296,,0,0.854722,22.7511,0,0,0.773371,8.83327,0,2.11861,,,0,,,,,1.4,17.74,58.98,1.692,0.076,0.983,0.513,0.129,0.097,2.14,0.401,0.028,0.003,-0.001,0.003,0.005,0.001,0.007,0.002,0.003,0.005,-0.001,-0.001,0.003,0.009,1.28,7.36,0.42,9.06
2.86867,63.1045,,0,0,15.1638,0,7.13238,0,9.85205,0,1.87865,,,0,,,,,1.2,16.1,60.7,1.223,0.05,0.96,2.35,0.15,0.031,2.8,0.295,0.025,0.003,0.001,0.003,0.006,0.001,0.009,-0.001,0.002,0.005,-0.001,-0.001,0.002,0.01,0.4,6.62,2.17,9.19
0.29894,6.09019,,,0,2.94327,,0,88.8513,,1.81628,,0,0,,,,,,85.8,65.71,7.347,0.218,0.029,0.08,0.107,0.026,0.007,0.334,0.059,0.004,0.002,-0.001,0.002,0.003,0.001,0.002,0.004,0.019,0.008,0.001,0.001,0.001,0.003,-0.25,-0.61,-1.44,-2.30
0,9.68273,,,0,2.12259,,1.11057,85.4714,,1.2764,,0,0.336347,,,,,,80,62.56,10.82,0.393,0.036,0.092,0.27,0.029,0.011,0.362,0.272,0.014,0.003,-0.001,0.002,0.004,-0.001,0.006,0.006,0.031,0.009,0.002,0.001,0.001,0.003,-0.32,-0.55,-1.2,-2.07
0.659132,8.38566,,,0,3.64182,,0,82.4681,,3.93458,,0.910676,0,,,,,,78.3,62.3,10.69,0.454,0.049,0.087,0.172,0.019,0.021,0.515,0.116,0.026,0.003,-0.001,0.003,0.004,0.003,0.006,0.008,0.043,0.009,0.002,0.001,0.002,0.006,-0.14,0.03,-1.26,-1.37
0.461466,5.61617,,,0,3.79522,,0,85.5575,,4.56959,,0,0,,,,,,80.7,64.15,8.496,0.46,0.05,0.077,0.171,0.019,0.018,0.45,0.117,0.035,0.003,-0.001,0.003,0.004,0.002,0.003,0.01,0.068,0.009,0.002,-0.001,0.002,0.004,-0.14,-0.23,-1.22,-1.59
3.91761,46.4852,,,0,22.9761,,2.59137,3.47793,,20.5518,,0,0,,,,,,2.6,17.16,56.43,1.943,0.08,0.875,1.066,0.16,0.062,3.49,0.484,0.104,0.005,0.001,0.003,0.004,-0.001,0.013,-0.001,-0.001,0.005,0.001,-0.001,0.004,0.011,0.84,8.85,0.44,10.13
1.34144,51.0301,,,6.91413,12.5504,,11.3077,1.47025,,13.7988,,0,1.58719,,,,,,1.2,10.94,61.16,2.814,0.118,0.79,3.529,0.217,0.135,3.33,1.776,0.092,0.006,0.001,0.002,0.007,0.001,0.024,-0.001,0.002,0.004,0.001,-0.001,0.004,0.014,0.44,5.92,3.08,9.44
4.3217,40.1532,,,0,21.2568,,5.00946,0.886755,,28.3721,,0,0,,,,,,1.2,20.11,52.05,2.373,0.102,0.513,1.479,0.118,0.144,2.96,0.579,0.14,0.005,0.001,0.003,0.003,0.001,0.01,-0.001,0.002,0.006,0.001,-0.001,0.004,0.01,1.39,8.07,0.89,10.35
5.08135,33.3456,,,0,21.2269,,5.52907,0.602908,,34.2142,,0,0,,,,,,1,22.3,47.48,3.091,0.135,0.445,1.704,0.137,0.251,3.02,0.747,0.16,0.006,0.002,0.003,0.004,-0.001,0.012,0.001,0.007,0.009,0.001,-0.001,0.004,0.01,1.16,8.04,1.03,10.23
4.49556,38.1373,,,3.28547,10.2644,0.332442,5.09923,30.8455,3.40207,3.56267,,0,0.575358,,,,,,30.5,32.14,41.47,2.146,0.093,0.474,1.284,0.079,0.042,2.24,0.891,0.106,0.005,-0.001,0.003,0.004,0.001,0.02,0.002,0.016,0.007,0.001,-0.001,0.004,0.013,0.34,4,0.45,4.79
9.47221,33.8379,,,6.33225,12.0309,0.660502,3.90779,23.3886,0.777388,8.3392,,0.460067,0.793195,,,,,,23.2,28.11,43.3,4.284,0.194,0.415,1.05,0.079,0.37,2.77,1.812,0.095,0.007,0.001,0.004,0.004,-0.001,0.039,0.006,0.035,0.013,0.001,-0.001,0.005,0.012,0.28,4.59,0.47,5.34
13.5277,30.1238,,,16.6164,10.4207,1.05442,3.81177,13.7428,0,10.7024,,0,0,,,,,,14.9,22.86,47.12,6.44,0.289,0.272,1.132,0.094,0.308,2.92,2.882,0.108,0.01,-0.001,0.005,0.006,0.004,0.063,0.008,0.051,0.019,0.002,0.001,0.007,0.012,0.4,4.37,0.63,5.40
14.9277,30.9153,,,12.6351,12.6582,0.943957,3.49445,10.5611,0.620682,11.6999,,0.479479,1.06424,,,,,,11.8,22.08,47.43,6.301,0.303,0.309,1.035,0.065,0.37,3.28,2.455,0.122,0.011,0.001,0.005,0.006,0.002,0.06,0.009,0.062,0.021,0.002,-0.001,0.007,0.009,0.53,5.16,0.73,6.42
7.66615,36.3378,,,4.55164,10.733,0.446781,5.62673,26.2639,1.46843,5.91733,,0.380212,0.608035,,,,,,26.6,29.5,43.02,3.231,0.147,0.381,1.255,0.066,0.293,2.84,1.13,0.126,0.006,-0.001,0.004,0.004,0.003,0.03,0.004,0.026,0.011,0.001,-0.001,0.005,0.01,0.15,4.38,0.56,5.09
5.85585,33.8587,,,5.46842,11.617,0.598336,5.09564,29.3882,1.50447,5.8861,,0,0.727337,,,,,,29.3,31.11,40.52,2.98,0.134,0.384,1.389,0.087,0.169,2.56,1.294,0.128,0.006,-0.001,0.003,0.004,0.004,0.024,0.004,0.027,0.012,0.001,-0.001,0.004,0.016,0.37,4.39,0.48,5.24
4.00279,39.5152,,,3.01838,11.818,0.309043,5.65834,27.4334,2.97922,4.9299,0,0,0.335802,,,,,,26,30.81,42.32,2.305,0.096,0.267,1.828,0.108,0.156,2.04,0.846,0.072,0.002,0.001,0.003,0.001,-0.001,0.007,0.004,0.019,0.006,-0.001,-0.001,0.003,0.008,0.26,4.52,0.86,5.64
4.86779,38.6413,,,0.922386,14.4259,0.861509,5.19708,22.6135,1.46353,9.71752,0,0.399166,0.890325,,,,,,22.3,29.17,43.79,2.501,0.103,0.305,1.494,0.106,0.291,2.32,0.805,0.079,0.002,0.001,0.002,0.001,-0.001,0.011,0.002,0.021,0.007,-0.001,-0.001,0.003,0.008,0.28,5.27,0.66,6.21
10.1142,36.5733,,,5.43764,13.42,1.21037,5.19678,10.9273,0,15.5179,0,1.30061,0.301931,,,,,,11.6,23.43,48.14,4.382,0.177,0.289,1.538,0.118,0.703,2.96,1.248,0.1,0.003,0.001,0.004,0.001,0.001,0.012,0.004,0.036,0.013,0.001,-0.001,0.005,0.009,0.44,5.23,1.16,6.83
0.792038,41.681,,,0,21.134,0,0,30.0543,5.77188,0,0.566831,0,0,,,,,,29.03,35.46,38.25,0.965,0.043,0.572,0.473,0.116,0.044,1.49,0.302,0.014,0.003,0.001,0.003,-0.001,-0.001,0.003,0.003,0.009,0.007,-0.001,-0.001,0.002,0.006,1.28,5.5,-0.19,6.59
5.11509,40.0009,,,0,14.988,0,0,37.4837,1.96206,0,0,0.450248,0,,,,,,37.8,36.88,38.15,1.336,0.062,0.617,0.317,0.085,0.083,1.57,0.095,0.019,0.003,0.001,0.003,-0.001,0.001,-0.001,-0.001,0.008,0.004,0.001,-0.001,0.002,0.004,0.5,4.27,-0.21,4.56
2.12664,39.9774,,,0,16.1736,0,0,34.585,5.75973,0,0.586408,0.549752,0.241521,,,,,,34.6,37.21,37.79,1.077,0.046,0.65,0.335,0.086,0.062,1.4,0.255,0.015,0.002,0.001,0.004,-0.001,-0.001,0.004,-0.001,0.006,0.003,0.001,0.001,0.001,0.004,0.5,4.36,-0.18,4.68
1.69696,38.1797,,,0,9.47939,0,5.26969,38.7398,6.24254,0,0.210359,0,0.181543,,,,,,39.2,38.93,35.42,0.711,0.03,0.578,1.416,0.092,0.018,1.68,0.172,0.011,0.002,0.001,0.002,-0.001,-0.001,0.004,-0.001,0.003,0.002,-0.001,-0.001,0.001,0.005,-0.05,3.24,0.65,3.84
8.45029,33.1371,0,0,0,18.7149,0.520049,1.92562,28.4559,0.963092,7.83311,,,,,,,,,29.4,33.34,37.87,2.027,0.091,0.493,0.792,0.093,0.096,3.26,0.186,0.055,0.004,0.001,0.004,0.003,0.002,0.01,0.002,0.012,0.006,0.001,-0.001,0.005,0.009,0.64,6.57,-0.17,7.04
4.19127,33.9526,0,0,0,13.8888,0.445174,2.9458,35.4368,1.2565,7.88309,,,,,,,,,36.1,35.24,38.04,1.361,0.059,0.558,0.996,0.098,0.045,2.72,0.284,0.066,0.003,-0.001,0.004,0.003,0.002,0.012,0.002,0.008,0.003,-0.001,-0.001,0.004,0.008,0.36,4.66,0.03,5.05
0.388345,33.6327,0,0,4.37548,8.87415,0.345031,4.39913,40.6924,1.87591,5.41684,,,,,,,,,41.7,35.93,37.87,1.063,0.047,0.602,1.581,0.086,0.023,2.23,0.719,0.047,0.002,-0.001,0.004,0.003,0.003,0.015,0.001,0.007,0.002,-0.001,-0.001,0.004,0.012,0.08,2.93,0.71,3.72
2.56953,32.304,0,0,0,17.0303,0,1.19943,33.8133,1.29361,11.7898,,,,,,,,,34.79,36.06,37.2,1.268,0.058,0.585,0.698,0.108,0.042,2.35,0.364,0.059,0.003,0.001,0.004,0.002,0.003,0.008,0.002,0.007,0.005,0.001,-0.001,0.003,0.006,0.57,5.07,-0.24,5.40
0.805723,31.6601,0,0,6.50974,8.88714,0,7.55363,35.6616,1.56899,7.35311,,,,,,,,,34.96,34.34,38.55,1.704,0.079,0.494,2.117,0.135,0.082,2.07,1.134,0.049,0.004,0.001,0.002,0.004,0.004,0.019,0.002,0.013,0.007,-0.001,0.001,0.003,0.008,0.14,2.89,1.26,4.29
3.31828,30.6737,0,0,0,18.1304,0.827408,3.39323,21.2841,1.3352,21.0377,,,,,,,,,22.7,31.9,40.5,1.817,0.087,0.4,1.149,0.088,0.113,2.34,0.506,0.1,0.004,0.002,0.003,0.002,0.001,0.01,0.002,0.013,0.006,0.001,-0.001,0.003,0.006,1.51,5.23,0.38,7.12
4.0462,25.8615,0,1.64535,0,18.7418,3.01487,3.70386,14.815,1.42884,26.7426,,,,,,,,,16,30.33,40.19,2.566,0.117,0.383,1.457,0.114,0.212,2.61,0.687,0.123,0.005,0.002,0.002,0.004,0.003,0.012,0.004,0.018,0.009,0.001,0.001,0.003,0.008,1.71,5.62,0.73,8.06
4.73086,37.4236,0,1.97096,8.95252,9.10944,0,1.99605,21.4107,11.6161,2.78985,,,,,,,,,19.05,30.51,42.97,3.606,0.166,0.421,0.902,0.12,0.094,1.89,1.532,0.225,0.006,0.002,0.002,0.004,0.003,0.037,0.004,0.036,0.013,0.002,-0.001,0.006,0.012,0.98,3,0.21,4.19
3.94791,33.4991,0,2.28985,7.47986,11.1963,0.257842,4.92335,27.9722,4.31523,4.11836,,,,,,,,,29.05,30.96,41.27,2.748,0.123,0.436,1.537,0.116,0.064,2.39,1.331,0.238,0.004,0.002,0.003,0.002,0.001,0.03,0.003,0.027,0.01,0.002,0.002,0.003,0.012,0.27,4.01,0.8,5.08
5.20589,34.8313,0,1.13228,4.50322,12.444,0.332839,5.16806,29.6176,3.03456,3.73026,,,,,,,,,29.35,31.17,41.28,2.456,0.106,0.458,1.455,0.079,0.117,2.67,0.906,0.112,0.004,0.002,0.002,0.002,0.002,0.021,0.003,0.018,0.008,0.001,0.003,0.004,0.009,0.29,4.6,0.76,5.65
2.98583,31.3406,2.23175,1.93596,9.06799,9.62958,0,4.00554,28.057,4.82622,5.9196,,,,,,,,,29.56,31.45,41.12,3.024,0.138,0.426,1.265,0.078,0.088,2.38,1.57,0.292,0.004,0.002,0.002,0.004,0.002,0.035,0.004,0.024,0.01,0.002,0.002,0.004,0.007,0.31,3.64,0.59,4.54
6.56243,32.0168,0,0.981445,10.0936,10.5316,0.575579,4.85266,24.845,2.34036,7.20046,,,,,,,,,26.65,28.88,43.33,3.645,0.16,0.427,1.34,0.085,0.354,2.53,1.874,0.108,0.005,0.002,0.003,0.005,0.004,0.043,0.004,0.027,0.011,-0.001,0.002,0.006,0.009,0.16,3.75,0.66,4.57
8.60724,30.8724,0,0,16.3004,11.7137,0.669587,3.9261,16.1746,0.899365,10.8366,,,,,,,,,16.65,23.33,46.38,6.693,0.286,0.327,1.129,0.083,0.235,3.11,2.65,0.105,0.008,0.003,0.002,0.005,0.002,0.069,0.008,0.063,0.019,0.002,0.001,0.006,0.011,0.49,4.45,0.72,5.66
9.02607,31.1842,0,0,11.8308,14.543,0.608681,3.28858,16.7013,1.25754,11.5599,,,,,,,,,16.9,25.5,44.54,5.176,0.253,0.341,1.042,0.082,0.329,3.11,1.954,0.086,0.007,0.002,0.002,0.005,0.004,0.09,0.007,0.054,0.018,0.002,-0.001,0.006,0.012,0.55,5.06,0.7,6.31
9.57686,30.1634,0,0,15.1273,11.7477,0.773446,4.09728,16.3824,1.19151,10.9401,,,,,,,,,16.95,23.78,46.39,5.882,0.272,0.324,1.238,0.103,0.267,2.95,2.66,0.103,0.007,0.002,0.005,0.005,0.003,0.099,0.007,0.048,0.018,0.002,0.005,0.005,0.012,0.46,4.37,0.74,5.57
0,34,,2,1,27,0,1,25,7,0,3,,,,,,,0,27.08,35.35,34.62,1.303,0.055,0.574,0.724,0.091,0.046,1.73,0.509,0.234,0.002,0.003,0.001,0.001,-0.001,0.006,-0.001,0.01,0.002,-0.001,-0.001,0.002,0.011,0.06,9.05,-0.05,9.06
0,32,,2,2,42,0,1,14,5,0,2,,,,,,,0,16.22,33.14,32.67,0.943,0.038,0.582,0.71,0.095,0.007,2.26,0.44,0.151,0.002,0.002,0.004,0.002,-0.001,0.002,-0.001,0.006,0.001,-0.001,-0.001,0.002,0.009,0.12,14.19,0.01,14.32
6,32,,0,2,29,0,2,22,1,7,0,,,,,,,0,23.39,32.76,35.95,1.499,0.062,0.534,0.848,0.096,0.04,2.4,0.373,0.035,0.003,-0.001,0.004,0.003,0.001,0.014,0.001,0.012,0.004,-0.001,-0.001,0.003,0.009,0.18,10.72,0.02,10.92
7,28,,0,0,38,1,1,12,0,13,0,,,,,,,0,12.1,31.38,33.57,1.485,0.064,0.525,1.198,0.139,0.048,2.41,0.194,0.055,0.003,-0.001,0.002,0.002,-0.001,0.009,0.001,0.011,0.004,0.001,-0.001,0.002,0.01,0.33,14.39,0.2,14.92
7,29,,0,0,39,0,1,11,0,13,0,,,,,,,0,11.16,31.01,34.04,1.842,0.078,0.503,0.807,0.11,0.099,2.65,0.174,0.074,0.003,0.002,0.002,0.002,-0.001,-0.001,-0.001,0.012,0.005,-0.001,-0.001,0.003,0.007,0.34,14.37,0.02,14.73
1,33,,0,2,10,0,5,40,1,8,0,,,,,,,0,44.26,36.3,37.46,1.008,0.045,0.651,1.295,0.09,0.024,2.34,0.592,0.136,0.002,0.001,-0.001,0.002,0.002,0.013,-0.001,0.008,0.003,-0.001,-0.001,0.003,0.011,0.11,3.37,0.51,3.99
0,33,,0,3,8,0,6,42,2,6,0,,,,,,,0,45,36.34,37.18,1.016,0.045,0.642,1.479,0.089,0.021,2.49,0.657,0.075,0.002,0.001,0.001,0.003,0.001,0.012,-0.001,0.01,0.004,-0.001,-0.001,0.002,0.01,0.05,3.1,0.75,3.90
3,35,,0,2,9,0,8,37,1,6,0,,,,,,,0,42.89,35.39,37.96,1.212,0.052,0.527,1.892,0.115,0.038,2.36,0.541,0.041,0.002,0.002,0.002,0.003,0.001,0.014,0.001,0.011,0.005,-0.001,-0.001,0.003,0.011,0.08,2.98,1.21,4.27
6,28,,0,2,18,0,7,15,2,23,0,,,,,,,0,14.32,28.92,40.27,3.232,0.147,0.329,1.921,0.069,0.186,2.67,0.925,0.158,0.006,0.001,0.003,0.003,-0.001,0.009,0.004,0.029,0.011,0.001,-0.001,0.004,0.01,0.7,6.09,1.64,8.43
3,27,,0,2,8,2,8,29,1,21,0,,,,,,,0,33.4,33.43,39.25,2.126,0.105,0.308,2.131,0.103,0.116,2.25,0.832,0.126,0.004,0.001,0.004,0.001,0.001,0.007,0.002,0.017,0.007,-0.001,-0.001,0.004,0.011,0.46,2.44,1.62,4.52
0,28,,0,2,8,1,8,27,1,23,0,,,,,,,1,29.82,32.03,40.52,2.106,0.095,0.293,2.127,0.1,0.126,2.29,0.981,0.132,0.004,-0.001,0.004,0.001,0.001,0.004,0.002,0.017,0.007,-0.001,-0.001,0.004,0.011,0.47,2.94,1.73,5.14
6,31,,2,8,9,0,6,27,5,6,0,,,,,,,0,26.55,30.16,41.88,3.277,0.141,0.416,1.42,0.102,0.117,2.38,1.537,0.197,0.005,-0.001,0.001,0.002,0.002,0.031,0.003,0.037,0.013,0.001,0.001,0.005,0.013,0.24,3.9,0.88,5.02
3,33,,2,7,11,0,6,30,2,6,0,,,,,,,0,35.93,32.3,39.82,2.535,0.109,0.484,1.477,0.119,0.083,2.32,1.323,0.183,0.004,-0.001,0.001,0.002,0.002,0.027,0.003,0.028,0.01,-0.001,-0.001,0.004,0.012,0.09,3.94,0.7,4.73
8,34,,2,5,12,0,4,27,3,5,0,,,,,,,0,28.76,31.07,40.92,3.119,0.139,0.422,1.123,0.066,0.328,2.59,1.047,0.155,0.005,-0.001,0.004,0.002,0.002,0.025,0.003,0.029,0.011,0.001,0.001,0.005,0.012,0.12,4.62,0.63,5.37
9,27,,0,15,14,1,3,18,1,12,0,,,,,,,0,17.17,25.1,43.74,5.583,0.25,0.366,1.112,0.101,0.312,3.07,2.604,0.109,0.007,0.001,0.005,0.005,0.002,0.052,0.007,0.051,0.017,0.002,-0.001,0.007,0.013,0.28,5.48,0.78,6.54
7,32,,2,8,9,0,5,30,1,6,0,,,,,,,0,33.09,30.93,41.02,3.206,0.133,0.438,1.277,0.075,0.083,2.63,1.547,0.168,0.005,-0.001,0.003,0.004,0.002,0.03,0.003,0.029,0.009,0.001,0.001,0.006,0.011,0.13,3.79,0.74,4.66
8,31,,0,9,11,0,5,26,1,9,0,,,,,,,0,29.82,29.78,41.67,3.554,0.154,0.439,1.398,0.078,0.135,2.51,1.708,0.093,0.005,-0.001,0.004,0.003,0.001,0.039,0.004,0.031,0.01,0.001,-0.001,0.006,0.011,0.15,4.22,0.88,5.25
2,35,,1,3,10,0,5,34,4,4,0,,,,,,,0,35.93,33.74,39.31,1.28,0.058,0.546,1.565,0.104,0.028,2.31,0.652,0.108,0.002,0.001,0.005,0.002,0.001,0.01,-0.001,0.014,0.004,-0.001,-0.001,0.003,0.012,0.09,4.2,0.98,5.27
3,32,,2,6,10,0,6,33,2,5,0,,,,,,,0,36.78,32.45,40.15,2.442,0.107,0.438,1.486,0.096,0.12,2.27,1.341,0.164,0.029,-0.001,0.002,0.006,0.004,0.021,0.003,0.026,0.01,0.001,-0.001,0.004,0.014,0.09,3.74,0.75,4.58
8,34,,0,7,12,1,7,22,1,9,0,,,,,,,0,24.34,28.1,43.43,3.463,0.146,0.284,1.783,0.124,0.241,2.66,1.33,0.079,0.005,-0.001,0.005,0.004,0.003,0.022,0.003,0.036,0.013,0.001,-0.001,0.005,0.012,0.23,4.46,1.21,5.90
4,36,,0,2,13,0,8,24,1,12,0,,,,,,,0,25.5,28.92,43.46,2.153,0.085,0.288,2.112,0.111,0.182,2.64,0.643,0.133,0.005,-0.001,0.005,0.003,0.002,0.007,0.002,0.02,0.006,-0.001,-0.001,0.004,0.011,0.25,4.54,1.7,6.49
4,35,,0,0,28,0,1,29,1,0,1,,,,,,,0,30.06,35.11,33.5,1.248,0.05,0.65,0.893,0.139,0.075,2.44,0.17,0.01,0.003,-0.001,-0.001,-0.001,-0.001,0.002,-0.001,0.01,0.002,-0.001,-0.001,0.002,0.011,0.07,10.08,-0.14,10.01
4,40,,0,0,17,0,1,34,2,0,2,,,,,,,0,38.79,35.87,37.52,1.507,0.066,0.602,0.642,0.122,0.069,1.85,0.413,0.015,0.003,-0.001,-0.001,0.001,-0.001,0.008,-0.001,0.011,0.004,-0.001,-0.001,0.002,0.011,-0.03,5.58,-0.34,5.21
7,38,,0,0,16,0,6,31,2,0,0,,,,,,,0,36.2,34.67,37.53,1.358,0.056,0.593,1.67,0.107,0.101,2.21,0.079,0.01,0.003,-0.001,-0.001,0.001,-0.001,-0.001,-0.001,0.01,0.004,-0.001,0.001,0.003,0.009,0.04,5.05,0.96,6.05
2,39,,0,0,16,0,2,33,5,0,2,,,,,,,0,37.17,36.43,37.35,1.112,0.045,0.659,0.728,0.105,0.067,1.81,0.327,0.016,0.002,-0.001,0.001,0.002,-0.001,0.008,-0.001,0.009,0.003,-0.001,-0.001,0.002,0.011,0.02,5.39,-0.13,5.28
11,39,,0,0,26,0,1,21,1,2,0,,,,,,,0,22.08,31.48,38.21,2.425,0.104,0.478,0.647,0.094,0.167,2.83,0.022,0.009,0.003,-0.001,-0.001,0.001,-0.001,-0.001,0.002,0.018,0.007,-0.001,-0.001,0.003,0.01,0.1,9.43,-0.03,9.50
9,38,,0,1,16,0,1,32,1,2,0,,,,,,,0,33.94,33.83,38.93,1.872,0.083,0.565,0.668,0.122,0.197,2.19,0.27,0.019,0.003,-0.001,0.002,0.001,-0.001,0.002,0.002,0.016,0.005,-0.001,-0.001,0.003,0.01,0.07,6.04,-0.12,5.99
0,44.374,,0,0,17.06,0,4.134,31.458,1.107,,0.641,,,0,,0,1.227,,34.3,32.55,42.19,0.442,0.023,0.593267,1.471,0.124,0.008,1.57,0.156,0.034,0.002,-0.001,0.002,0.001,0.002,0.005,-0.001,0.003,0.002,-0.001,-0.001,0.003,0.01,0.02,6.51,-0.11,6.42
1.778,46.221,,0,0,9.898,0,3.733,38.37,0,,0,,,0,,0,0,,41.2,34.38,43.46,0.613,0.026,0.342329,1.112,0.077,0.013,1.26,0.076,0.025,0.002,-0.001,0.002,0.001,0.002,0.002,0.001,0.004,0.003,0.001,-0.001,0.003,0.011,-0.03,3.82,-0.15,3.64
1.396,51.335,,0,0,9.009,0,0,38.261,0,,0,,,0,,0,0,,40.5,33.18,47.4,0.538,0.02,0.261781,0.312,0.076,0.006,1,0.073,0.05,0.002,-0.001,0.001,0.001,0.003,-0.001,0.001,0.003,0.002,-0.001,-0.001,0.003,0.01,-0.07,2.51,-0.14,2.30
1.453,42.517,,0,0,7.095,0,11.381,36.696,0.857,,0,,,0,,0,0,,40.4,33.51,41.26,0.521,0.022,0.4647,2.783,0.067,0.015,1.85,0.013,0.051,0.002,-0.001,0.003,0.001,0.003,0.003,-0.001,0.005,0.003,0.001,0.001,0.003,0.011,-0.05,5.11,-0.13,4.93
4.378,38.166,,0,0,12.029,0,4.697,39.894,0.837,,0,,,0,,0,0,,41.9,37.11,36.77,0.899,0.034,0.566934,1.456,0.081,0.016,1.6,0.001,0.025,0.002,-0.001,0.001,-0.001,-0.001,-0.001,-0.001,0.005,0.004,-0.001,0.001,0.002,0.01,0.01,5.34,-0.34,5.01
0,47.751,,0,0,22.245,0,0,23.933,5.113,,0.959,,,0,,0,0,,25.3,30.73,44.83,0.866,0.031,0.571581,0.288,0.059,0.011,1.3,0.344,0.035,0.002,-0.001,0.002,-0.001,0.001,0.005,-0.001,0.005,0.003,-0.001,-0.001,0.002,0.011,0.12,7.11,-0.04,7.19
2.771,39.909,,0,0,19.617,0,0,36.338,1.365,,0,,,0,,0,0,,37.9,36.67,37.16,0.818,0.035,0.628894,0.333,0.066,0.023,1.94,0.072,0.012,0.002,0.001,0.012,0.001,0.001,0.004,-0.001,0.005,0.004,0.001,-0.001,0.003,0.011,0.06,6.36,-0.18,6.24
2.048,38.932,,0,0,4.484,0,6.872,47.059,0.605,,0,,,0,,0,0,,48.6,38.6,37.16,0.551,0.023,0.343878,2.086,0.145,0.008,1.32,0.021,0.013,0.002,0.001,-0.001,-0.001,0.001,0.002,-0.001,0.004,0.002,-0.001,-0.001,0.002,0.009,-0.14,2.3,0.53,2.69
0,44.147,,0,0.904,12.295,0,0,38.506,3.46,,0.687,,,0,,0,0,,39.1,35.32,42.28,0.718,0.027,0.559189,0.398,0.083,0.008,1.34,0.284,0.026,0.002,-0.001,-0.001,0.001,0.003,0.005,-0.001,0.003,0.002,-0.001,-0.001,0.002,0.01,-0.04,3.78,-0.18,3.56
2.537,37.247,,0,0,14.371,0,0,43.864,1.487,,0.493,,,0,,0,0,,43.4,39.08,34.89,1.418,0.062,0.525111,0.466,0.115,0.021,1.9,0.279,0.007,0.003,-0.001,-0.001,0.001,0.002,0.008,0.002,0.009,0.004,0.001,-0.001,0.003,0.01,-0.01,4.42,-0.14,4.27
17.372,36.511,,0,0,13.474,0,0,31.721,0.921,,0,,,0,,0,0,,31.2,33.79,35.21,4.724,0.251,0.3523975,0.928,0.287,0.402,3.49,0.099,0.02,0.008,0.001,-0.001,0.002,0.003,0.005,0.004,0.042,0.017,0.003,-0.001,0.005,0.01,0.24,4.58,0.89,5.71
9.512,40.829,,0,0,25.022,0,0,23.119,0.915,,0.604,,,0,,0,0,,24.5,30.46,38.57,2.721,0.112,0.549895,1.351,0.394,0.175,2.87,0.175,0.024,0.005,0.001,0.002,0.002,0.002,0.008,0.002,0.018,0.009,0.001,0.001,0.004,0.012,0.16,8.08,0.38,8.62
5.084,37.358,,0,0,25.981,0,0,29.211,0.788,,0,,,0,,1.578,0,,30.6,34.52,36.18,1.15,0.048,0.782245,0.392,0.092,0.031,2.5,0.028,0.013,0.002,-0.001,0.002,0.001,-0.001,-0.001,-0.001,0.007,0.004,0.001,-0.001,0.002,0.009,0.13,8.94,-0.08,8.99
0,45.044,,0,0,0,0,0,9.765,40.093,,0,,,2.727,,0,2.37,,10.1,38,42.85,1.227,0.051,0.0271075,0.02,0.088,0.002,0.228,0.092,0.011,0.002,0.001,0.001,0.001,-0.001,-0.001,0.002,0.007,0.004,0.001,0.001,0.002,0.009,0.64,0.35,-0.02,0.97
0,49.87,,0,0,20.798,0,0,22.458,5.95,,0.924,,,0,,0,0,,24.3,30.15,46.94,0.586,0.031,0.436818,0.497,0.107,0.002,1.11,0.191,0.06,0.002,0.002,-0.001,0.002,0.002,0.002,-0.001,0.005,0.003,0.001,-0.001,0.003,0.011,0.06,6.55,-0.08,6.53
0,25.949,,2.407,2.399,42.567,0,1.215,19.603,5.245,,0.614,,,0,,0,0,,18.9,36.31,25.73,1.283,0.055,0.6699425,0.932,0.119,0.013,2.6,0.532,0.199,0.002,0.002,0.001,-0.001,-0.001,0.012,-0.001,0.007,0.004,0.001,0.002,0.002,0.011,0.31,15.27,0.01,15.59
0,26.737,,1.985,3.677,43.689,0,1.083,21.268,1.024,,0.537,,,0,,0,0,,24.5,36.71,27.06,1.135,0.049,0.574679,0.66,0.064,0.002,2.35,0.587,0.137,0.001,0.001,0.001,-0.001,-0.001,0.008,-0.001,0.005,0.004,0.001,-0.001,0.001,0.01,0.18,14.63,-0.11,14.70
3.548,39.844,,0,0.806,25.794,0,1.988,26.361,0.585,,0,,,0,,1.074,0,,28.6,32.77,38.41,1.099,0.048,0.5537675,0.892,0.082,0.021,2.11,0.309,0.012,0.002,0.001,0.002,0.001,-0.001,0.007,0.001,0.006,0.004,-0.001,0.001,0.002,0.011,0.11,9.04,0.11,9.26
2.937,33.147,,0,0,32.499,0,4.737,6.697,0,,0,,,0,,19.982,0,,7.4,25.69,41.08,1.629,0.069,0.429073,1.217,0.017,0.033,3.53,0.366,0.138,0.002,0.001,-0.001,-0.001,-0.001,0.025,0.001,0.008,0.005,0.001,-0.001,0.002,0.011,0.66,12.61,1.23,14.50
4.123,21.214,,0,0,35.022,0,0.728,21.306,0,,0,,,0,,17.607,0,,24.7,37.57,26.77,1.422,0.061,0.4902585,0.617,0.082,0.02,3.04,0.225,0.085,0.002,0.001,-0.001,-0.001,-0.001,0.013,-0.001,0.008,0.004,0.001,0.001,0.002,0.008,0.46,13.07,-0.19,13.34
10.369,34.206,,0,0,35.549,0,0,7.417,0,,0,,,0,,12.458,0,,7.81,28.18,38.25,3.259,0.146,0.3462015,0.407,0.054,0.237,2.77,0.143,0.057,0.003,0.005,-0.001,0.001,0.002,0.004,0.003,0.02,0.011,0.002,-0.001,0.004,0.009,0.55,12.67,0.47,13.69
0,22.164,,0,0,32.829,0,1.361,17.527,0,,0,,,0,,26.119,0,,19.6,34.64,30.82,1.373,0.059,0.5227875,0.708,0.057,0.028,3.1,0.414,0.151,0.002,0.001,0.001,0.001,-0.001,0.013,0.001,0.007,0.005,0.001,-0.001,0.002,0.01,0.67,12.37,0.09,13.13
5.041,30.742,,0,0,30.269,0,0.369,23.68,0,,0,,,0,,9.899,0,,25.8,35.41,32.97,1.238,0.055,0.545248,0.59,0.083,0.023,2.29,0.118,0.05,0.002,0.001,0.003,-0.001,0.002,0.008,0.001,0.007,0.004,0.001,0.001,0.003,0.011,0.32,11.16,-0.24,11.24
0,35.221,,0,1.12,0,0,0,4.696,47.864,,0.196,,,10.903,,0,0,,3.69,44.28,32.97,0.895,0.046,0.0410485,0.012,0.084,0.006,0.053,0.382,0.007,0.003,0.002,-0.001,0.001,0.001,0.004,0.001,0.008,0.004,0.001,0.001,0.002,0.008,1.63,0.48,0.1,2.21
0,33.643,,2.461,2.38,22.294,0,0,34.708,3.696,,0.817,,,0,,0,0,,34.4,36.58,34.5,1.348,0.057,0.4980035,0.281,0.045,0.022,2.04,0.591,0.193,0.002,0.002,-0.001,-0.001,-0.001,-0.001,-0.001,0.008,0.005,0.001,-0.001,0.002,0.009,0.13,7.78,-0.33,7.58
1.382,32.257,,0,1.414,9.328,0,0,46.247,0.925,,0,,,0,,8.446,0,,48.2,39.96,35,1.063,0.051,0.453082,0.39,0.099,0.021,2.36,0.423,0.071,0.003,0.001,-0.001,0.001,0.003,0.007,0.001,0.007,0.004,0.001,-0.001,0.003,0.011,0.08,3.06,-0.5,2.64
0,44.218,,0,1.885,11.23,0,3.819,32.428,0.857,,0,,,0,,5.563,0,,34.5,30.59,45.53,0.696,0.034,0.720285,1.195,0.067,0.05,2.32,0.415,0.054,0.002,0.001,-0.001,0.002,0.003,0.008,0.001,0.004,0.003,0.001,0.003,0.003,0.01,0.24,3.88,0.68,4.80
1.138,28.262,,0,1.971,11.893,0.449,5.856,36.864,1.706,,0,,,0,,11.861,0,,39.9,36.74,33.49,1.138,0.057,0.7009225,1.776,0.122,0.027,3.02,0.477,0.103,0.003,0.001,-0.001,0.001,0.002,0.016,-0.001,0.008,0.005,0.001,0.001,0.003,0.011,0.36,4.24,1.23,5.83
0,42.157,,0,1.568,9.889,0,9.06,30.539,3.174,,0,,,0,,3.613,0,,33.2,30.94,42.45,0.76,0.032,0.648256,2.25,0.071,0.02,2.38,0.487,0.06,0.002,0.001,-0.001,0.002,0.002,0.01,-0.001,0.005,0.003,-0.001,-0.001,0.003,0.012,0.38,3.52,2.13,6.03
1.242,33.643,,0,2.378,8.437,0,4.049,40.935,0.928,,0,,,0,,8.386,0,,44.6,37.72,36.19,1.157,0.05,0.429073,1.523,0.166,0.025,2.13,0.547,0.061,0.003,0.001,-0.001,0.001,0.003,0.014,0.002,0.008,0.004,-0.001,0.001,0.002,0.01,2.2,0.58,0.58,3.36
0,27.508,,0,3.402,8.058,0,1.544,52.198,0.773,,0,,,0,,5.094,1.423,,54.4,43.77,29.86,1.098,0.042,0.514268,0.701,0.097,0.017,1.85,0.761,0.05,0.002,0.001,0.001,-0.001,0.001,0.016,0.001,0.007,0.004,-0.001,-0.001,0.002,0.009,0.03,2.44,-0.38,2.09
2.029,24.117,,0,0,12.071,0,5.201,32.437,1.05,,0,,,0,,23.095,0,,35.9,36.58,33.26,1.666,0.064,0.548346,1.741,0.119,0.042,3,0.504,0.159,0.003,0.001,0.001,0.001,0.001,0.017,0.002,0.008,0.006,-0.001,-0.001,0.002,0.01,0.63,4.23,1.15,6.01
0,22.827,,0,0,26.518,0,0,19.206,0,,0,,,0,,27.425,4.024,,31.1,37.85,33.77,1.194,0.05,0.529758,0.403,0.087,0.015,2.08,0.444,0.018,0.002,0.001,-0.001,-0.001,0.001,0.007,0.002,0.007,0.005,-0.001,-0.001,0.002,0.009,1.28,5.95,-0.43,6.80
1.671,31.884,,0,0,17.829,0,0,30.272,2.592,,0,,,0,,15.752,0,,33.8,35.31,37.56,1.247,0.048,0.5119445,0.399,0.099,0.021,2.48,0.491,0.052,0.003,-0.001,-0.001,-0.001,0.002,0.015,-0.001,0.007,0.004,0.001,0.001,0.003,0.01,1.07,5.26,-0.36,5.97
0,19.274,,0,0,11.811,0,5.909,22.098,0,,0,,,0,,37.523,3.385,,25.5,33.89,34.78,2.684,0.123,0.2935355,2.147,0.065,0.074,2.47,0.812,0.21,0.005,-0.001,-0.001,0.003,0.002,0.013,0.003,0.024,0.009,0.001,-0.001,0.004,0.013,1.54,4.06,1.81,7.41
7.275,15.336,,0,0,6.785,0,14.563,8.02,0,,0,,,0,,48.022,0,,8.84,26.02,37.4,4.528,0.234,0.227703,4.835,0.239,0.368,3.71,1.14,0.327,0.009,0.001,-0.001,0.004,0.004,0.018,0.006,0.044,0.018,0.002,0.001,0.006,0.015,1.47,2.94,4.43,8.84
5.319,13.949,,0,8.88,0.728,0,9.129,16.131,1.809,,0,,,0,,44.054,0,,16.7,26.65,40.71,5.145,0.273,0.238546,2.738,0.037,0.514,4.25,2.402,0.328,0.009,0.002,-0.001,0.004,0.005,0.029,0.005,0.042,0.019,0.003,0.004,0.007,0.015,0.93,1.32,2.62,4.87
0,30.269,,0,3.581,13.94,0,5.999,30.923,0,,0,,,0,,15.289,0,,35,34.76,37.34,1.193,0.044,0.484837,1.653,0.043,0.017,1.98,0.788,0.078,0.003,-0.001,-0.001,0.002,0.002,0.006,-0.001,0.006,0.004,-0.001,-0.001,0.002,0.012,0.24,5.03,1.27,6.54
0,29.411,,0,1.252,2.02,0,4.77,43.849,0,,0,,,0,,18.697,0,,46.8,39.75,36.36,1.244,0.065,0.111528,1.549,0.125,0.038,1.27,0.634,0.12,0.003,-0.001,-0.001,0.001,0.003,0.005,0.003,0.012,0.005,0.001,0.002,0.003,0.01,0.17,0.33,0.71,1.21
0.816,20.873,,0,6.699,3.649,0,6.039,37.132,0,,0,,,0,,24.793,0,,35.9,35.93,35.83,3.001,0.145,0.141733,2.015,0.22,0.134,2.16,1.674,0.238,0.005,0.001,-0.001,0.002,0.003,0.02,0.004,0.023,0.01,0.001,0.002,0.004,0.011,0.49,0.96,1.02,2.47
0,38.367,,0,2.749,11.415,0,2.044,35.636,7.109,,0,,,0,,2.68,0,,35.8,36.02,38.58,1.21,0.06,0.501876,0.999,0.14,0.012,1.61,0.655,0.082,0.002,-0.001,0.001,0.001,0.003,0.012,0.002,0.01,0.006,-0.001,-0.001,0.003,0.01,0.1,4.12,0.04,4.26
1.201,33.971,,1.644,8.355,10.277,0,4.209,33.111,2.126,,0,,,0,,5.106,0,,34.8,32.16,40.65,2.475,0.082,0.437592,1.381,0.123,0.045,2.12,1.502,0.18,0.004,-0.001,-0.001,0.004,0.003,0.03,0.003,0.028,0.008,0.001,0.002,0.004,0.014,0.11,3.9,0.65,4.66
3.814,45.202,,0,1.578,10.777,0,0,34.65,2.766,,0,,,0,,1.214,0,,35.1,32.67,44.78,1.42,0.064,0.386475,0.397,0.112,0.015,1.64,0.499,0.027,0.002,-0.001,0.001,0.002,0.002,0.009,0.002,0.01,0.005,-0.001,-0.001,0.003,0.01,0.02,3.77,-0.46,3.33
3.521,32.798,,1.658,4.467,12.806,0,3.396,36.304,2.021,,0,,,0,,3.029,0,,37.1,35.14,36.67,2.321,0.112,0.469347,1.075,0.061,0.033,2.43,0.97,0.171,0.004,-0.001,-0.001,0.002,0.003,0.024,0.002,0.022,0.009,0.001,-0.001,0.004,0.012,0.11,4.74,0.42,5.27
3.468,29.817,,2.96,3.872,8.764,0,3.969,37.943,3.375,,0,,,0,,5.833,0,,40,36.41,36.21,2.145,0.089,0.389573,1.206,0.089,0.031,2.35,0.793,0.309,0.003,0.001,-0.001,0.001,0.002,0.015,0.003,0.02,0.008,0.001,0.001,0.004,0.011,0.09,3.3,0.52,3.91
3.272,40.471,,0,2.191,9.892,0,4.226,35.234,1.489,,0,,,0,,3.225,0,,36,32.53,41.96,1.467,0.079,0.430622,1.559,0.162,0.019,2.22,0.499,0.088,0.002,-0.001,-0.001,0.003,0.003,0.013,0.002,0.013,0.006,0.001,0.001,0.004,0.015,0.03,3.84,0.7,4.57
0,32.568,,2.297,3.154,14.363,0,1.538,39.039,4.655,,0,,,0,,2.386,0,,40.8,37.6,35.28,1.353,0.045,0.558414,0.764,0.106,0.009,2.16,0.725,0.221,0.002,-0.001,0.001,0.001,0.003,0.014,0.001,0.01,0.005,0.001,0.002,0.003,0.01,-0.01,4.58,-0.15,4.42
1.53,33.21,,3.017,4.243,10.121,0,4.402,31.1,7.382,,0,,,0,,4.994,0,,32.3,33.66,38.48,2.055,0.082,0.467798,1.616,0.154,0.031,2.25,0.931,0.35,0.004,0.001,0.001,0.002,0.003,0.025,0.002,0.015,0.006,0.001,0.001,0.004,0.014,0.06,3.9,0.86,4.82
14.898,28.453,,0,17.52,5.555,0,2.769,7.61,0,,0,,,0,,23.196,0,,7.3,19,50.18,8.437,0.411,0.157998,1.026,0.132,0.269,4.08,2.81,0.261,0.011,0.001,0.002,0.006,0.005,0.137,0.011,0.096,0.03,0.003,0.002,0.011,0.014,0.59,3.06,0.8,4.45
6.322,31.111,,0,3.008,19.152,0,0.365,30.641,0,,0,,,0,,9.401,0,,32,34.74,36.2,2.292,0.103,0.5041995,0.31,0.024,0.049,2.79,0.595,0.082,0.005,-0.001,0.001,0.002,0.003,0.022,0.006,0.018,0.007,0.001,-0.001,0.004,0.01,0.25,6.91,-0.24,6.92
3.168,37.346,,0,2.676,11.838,0,4.16,36.001,0.737,,0,,,0,,4.074,0,,36.5,33.84,39.62,1.457,0.07,0.5212385,1.283,0.074,0.035,2.16,0.621,0.05,0.003,0.001,-0.001,0.002,0.002,0.013,0.002,0.011,0.005,-0.001,0.001,0.003,0.012,0.09,4.6,0.55,5.24
5.255,32.485,,0,8.594,12.706,0,2.065,33.008,0.717,,0,,,0,,5.17,0,,33.3,31.88,39.43,3.339,0.15,0.4902585,0.856,0.116,0.058,2.77,1.573,0.095,0.004,0.001,0.001,0.003,0.002,0.038,0.004,0.027,0.011,0.001,0.004,0.005,0.012,0.16,4.8,0.01,4.97
7.12,23.106,,2.373,27.385,3.015,0.373,9.319,15.193,0,,0,,,0,,10.215,0,,15.6,18.57,46.58,7.849,0.351,0.226928,2.934,0.132,0.978,3.74,4.655,0.255,0.011,0.001,-0.001,0.005,0.007,0.101,0.004,0.096,0.026,0.004,0.005,0.01,0.017,0.22,1.95,2.34,4.51
0.493,34.489,,1.376,3.48,13.166,0,1.725,39.734,3.396,,0,,,0,,2.14,0,,40.6,37.45,35.54,1.286,0.063,0.624247,0.863,0.136,0.022,1.75,0.795,0.11,0.002,-0.001,-0.001,0.001,0.002,0.019,0.002,0.013,0.006,0.001,0.001,0.003,0.012,-0.02,4.77,-0.24,4.51
13.265,30.296,,0,4.944,14.693,0,9.003,15.86,0,,0,,,0,,11.939,0,,16.4,26.16,39.3,4.664,0.207,0.5553165,2.763,0.038,0.091,3.64,0.946,0.098,0.006,-0.001,-0.001,0.003,0.003,0.041,0.003,0.038,0.014,0.002,0.001,0.006,0.014,0.37,6.53,2.9,9.80
5.504,37.563,,0,2.438,12.945,0,3.618,34.459,0,,0,,,0,,3.474,0,,36.4,34.16,38.94,1.909,0.089,0.4647,1.131,0.089,0.015,2.25,0.567,0.044,0.003,0.001,0.001,0.001,-0.001,0.014,0.002,0.013,0.006,0.001,-0.001,0.003,0.011,0.06,4.76,0.38,5.20
5.424,32.616,,1.783,14.582,7.282,0,7.887,21.565,0.96,,0,,,0,,7.902,0,,23.3,23.48,46.38,4.768,0.231,0.342329,2.634,0.119,0.204,2.88,2.62,0.272,0.005,0.001,0.001,0.005,0.004,0.066,0.004,0.055,0.015,0.002,0.003,0.01,0.016,0.2,2.94,2.27,5.41
2.522,31.844,,3.802,7.78,9.257,0,2.579,31.603,2.085,,0,,,0,,8.528,0,,33.1,30.72,41.76,3.485,0.164,0.353172,0.765,0.044,0.108,3.17,1.604,0.407,0.006,-0.001,0.002,0.005,0.004,0.032,0.006,0.044,0.014,0.002,-0.001,0.006,0.013,0.14,3.18,0.35,3.67
0,42.451,,1.439,2.28,8.797,0,7.629,30.39,2.785,,0,,,0,,4.23,0,,31.5,29.9,44.45,1.153,0.054,0.4980035,2.144,0.048,0.015,2.15,0.606,0.144,0.003,-0.001,0.001,0.002,0.003,0.012,0.002,0.012,0.005,0.001,-0.001,0.004,0.014,0.06,3.67,1.83,5.56
2.609,35.604,,0,0.926,10.291,0,8.596,29.098,6.565,,0,,,0,,6.31,0,,31.2,33.77,38.39,1.392,0.071,0.408936,2.148,0.035,0.406,2.84,0.385,0.126,0.005,0.001,0.001,0.005,0.006,0.007,0.006,0.015,0.009,0.002,0.001,0.004,0.016,0.11,3.66,1.56,5.33
3.54,45.38,,1.328,4.555,12.443,0,5.314,19.869,1.052,,0,,,0,,6.518,0,,21.8,24.17,51.31,2.201,0.095,0.3353585,1.303,0.015,0.116,2.43,0.916,0.154,0.003,0.001,0.001,0.002,0.003,0.016,0.002,0.025,0.008,0.001,-0.001,0.004,0.012,0.24,4.96,1.02,6.22
2.43,31.036,,0,2.746,18.1,0,0.694,38.931,0.587,,0,,,0,,5.475,0,,40.9,39.24,32.41,1.4,0.055,0.351623,0.677,0.143,0.02,1.91,0.624,0.056,0.002,0.001,-0.001,-0.001,-0.001,0.016,0.001,0.01,0.005,-0.001,0.002,0.002,0.01,0.12,6.06,-0.47,5.71
1.592,28.312,,0,2.746,13.864,0,4.071,40.524,0,,0,,,0,,8.891,0,,41.1,38.67,32.31,1.49,0.064,0.271075,1.379,0.086,0.027,2.3,0.62,0.144,0.002,0.001,0.001,0.001,0.002,0.008,0.002,0.013,0.006,0.001,-0.001,0.003,0.011,0.13,4.86,0.63,5.62
0,55.675,,0,0.888,0,0,0,5.564,28.892,,0,,,8.981,,0,0,,4.52,29.6,54.62,0.719,0.03,0.19285,0.092,0.05,0.002,0.109,0.303,0.024,0.002,0.001,0.001,0.002,0.002,0.014,-0.001,0.007,0.005,0.001,-0.001,0.003,0.012,1.09,0.22,0,1.31
12.645,36.654,,0,2.233,9.408,0,6.572,21.259,2.706,,0,,,0,,8.524,0,,22.9,27.58,43.12,3.689,0.161,0.193625,2.309,0.25,0.098,3.5,0.473,0.112,0.005,-0.001,0.001,0.004,0.004,0.005,0.006,0.028,0.01,0.001,-0.001,0.005,0.014,0.27,4.27,1.5,6.04
0.545,37.251,,0,1.032,7.842,0,10.875,35.362,0.644,,0,,,0,,6.449,0,,36.9,33.73,38.05,0.634,0.028,0.2532615,3.559,0.099,0.004,1.83,0.29,0.044,0.001,-0.001,-0.001,0.001,0.002,0.006,-0.001,0.005,0.002,-0.001,-0.001,0.002,0.012,0.16,3.21,3.34,6.71
1.452,27.877,,0,2.9,11.893,0,1.874,43.381,1.279,,0,,,0,,9.344,0,,45.4,40.46,32.23,1.34,0.055,0.19285,0.981,0.168,0.024,2.07,0.635,0.09,0.002,-0.001,-0.001,0.001,0.002,0.012,0.002,0.009,0.005,-0.001,-0.001,0.003,0.01,0.17,3.95,-0.14,3.98